Folder: ElasticMudrock/Code/Data - Well

Note: README.md
# A thermal-maturation dependent elastic rock physics template for organic-rich mudrocks: Construction, sensitivity analysis, and practicalities

This repository contains all the required code and data to reproduce all the figures illustrated in the manuscript "A thermal-maturation dependent elastic rock physics template for organic-rich mudrocks: Construction, sensitivity analysis, and practicalities"

## External tools used (included in the folder already)
- Stanford SRB Toolbox: perform some rock physics functions (https://github.com/StanfordRockPhysics/SRBDRP_Toolbox)
- TernPlot: For plotting ternariy diagrams (https://github.com/alchemyst/ternplot)
- DGSA: for senstivity analysis (https://github.com/SCRFpublic/DGSA)

## More information
Please contact me for more information and suggestions

File: XRD_Alcor1.csv
Depth,Qurtz,Illite,Calcite,Pyrite,Apatite
10577.18,15,14,26,16,22
10587.18,2,1,33,2,61
10597.18,7,9,72,2,6
10605.4,5,4,86,1,1
10615.18,2,1,92,0,1
10625.18,33,4,50,3,4
10633.18,6,14,4,2,67
10643.18,59,25,0,11,1
10653.18,56,14,4,12,5